Folder: FP-Versuchsprotokolle/v44/content/Data/Fehlerdaten

Note: README.md
# FP-Versuchsprotokolle
Versuchsprotokolle zum Fortgeschrittenenpraktikum der TU Dortmund von Tabea H. und Steffen K.

File: Detektorscan.UXD
; C:\DIFFDAT1\Praktikum\V44_Hach_Kob\Detektorscan.raw(Diffrac Plus V1.01 file) converted by XCH V1.0
_FILEVERSION=2
_SITE='Deutschland'
_USER='Administrator'
_GONIOMETER_CODE=4885
; D8 Theta/Theta; Special
_SAMPLE_CHANGER_CODE=0
_ATTACHMENTS_CODE=0
_GONIOMETER_RADIUS=350
_FIXED_DIVSLIT=0.600000
_FIXED_SAMPLESLIT=0.000000
_FIXED_DETSLIT=11.66
_MONOCHROMATOR=0
; None
_THIN_FILM='N'
_BETA_FILTER='Y'
_FIXED_ANTISLIT=8.340000
_ANALYZER_CODE=0
; None
_DATEMEASURED='18-Dec-2023 08:29:32'
_WL_UNIT='A'
_WL1=1.540600
_WL2=1.544390
_WL3=1.392220
_WLRATIO=0.500000
_ANODE='Cu'
; (Data for Range number 1)
_DRIVE='2THETA'
_STEPTIME=0.500000
_STEPSIZE=0.010000
_STEPMODE='S'
_START=-0.500000
_THETA=0.000000
_2THETA=-0.500000
_KHI=0.000000
_PHI=92.46
_X=-0.016000
_Y=0.000000
_Z=-20
_DIVERGENCE=0.000000
_ANTISCATTER=0.000000
_DETECTOR=5
_DETECTORSLIT='unkn'
_AUX1=0.000000
_AUX2=0.000000
_AUX3=0.000000
_TIMESTARTED=2.000000
_TEMP_RATE=-1.000000
_TEMP_DELAY=-1.000000
_KV=40
_MA=35
_RANGE_WL=1.540600
_3DPLANE=0
_GONIOMETER=-0.500000
_PSDCHANNEL0=0
_2THETACOUNTS
  -0.5000       132
  -0.4900       167
  -0.4800       204
  -0.4700       250
  -0.4600       262
  -0.4500       321
  -0.4400       356
  -0.4300       401
  -0.4200       443
  -0.4100       517
  -0.4000       525
  -0.3900       647
  -0.3800       790
  -0.3700       854
  -0.3600       933
  -0.3500      1009
  -0.3400      1120
  -0.3300      1272
  -0.3200      1479
  -0.3100      1600
  -0.3000      1863
  -0.2900      2039
  -0.2800      2307
  -0.2700      2509
  -0.2600      2618
  -0.2500      2878
  -0.2400      3220
  -0.2300      3738
  -0.2200      4386
  -0.2100      5288
  -0.2000      6067
  -0.1900      7091
  -0.1800      8045
  -0.1700      9307
  -0.1600     11316
  -0.1500     13835
  -0.1400     16553
  -0.1300     20195
  -0.1200     25184
  -0.1100     33805
  -0.1000     46127
  -0.0900     65391
  -0.0800     97369
  -0.0700    156175
  -0.0600    219138
  -0.0500    313385
  -0.0400    397299
  -0.0300    469410
  -0.0200    537785
  -0.0100    603118
   0.0000    636369
   0.0100    620055
   0.0200    528889
   0.0300    398508
   0.0400    267755
   0.0500    177244
   0.0600    121494
   0.0700     90692
   0.0800     72085
   0.0900     59089
   0.1000     47407
   0.1100     38276
   0.1200     30236
   0.1300     25461
   0.1400     22698
   0.1500     21015
   0.1600     19608
   0.1700     15696
   0.1800     11578
   0.1900      7766
   0.2000      4658
   0.2100      3552
   0.2200      2939
   0.2300      2475
   0.2400      2185
   0.2500      1927
   0.2600      1699
   0.2700      1662
   0.2800      1579
   0.2900      1455
   0.3000      1310
   0.3100      1254
   0.3200      1053
   0.3300       900
   0.3400       768
   0.3500       609
   0.3600       504
   0.3700       482
   0.3800       393
   0.3900       349
   0.4000       306
   0.4100       318
   0.4200       251
   0.4300       246
   0.4400       208
   0.4500       192
   0.4600       181
   0.4700       149
   0.4800       133
   0.4900       144
   0.5000       145

File: Kopie von Rocking1.UXD
; C:\DIFFDAT1\Praktikum\V44_Hach_Kob\Rocking1.raw(Diffrac Plus V1.01 file) converted by XCH V1.0
_FILEVERSION=2
_SITE='Deutschland'
_USER='Administrator'
_GONIOMETER_CODE=4885
; D8 Theta/Theta; Special
_SAMPLE_CHANGER_CODE=0
_ATTACHMENTS_CODE=0
_GONIOMETER_RADIUS=350
_FIXED_DIVSLIT=0.600000
_FIXED_SAMPLESLIT=0.000000
_FIXED_DETSLIT=11.66
_MONOCHROMATOR=0
; None
_THIN_FILM='N'
_BETA_FILTER='Y'
_FIXED_ANTISLIT=8.340000
_ANALYZER_CODE=0
; None
_DATEMEASURED='18-Dec-2023 08:49:45'
_WL_UNIT='A'
_WL1=1.540600
_WL2=1.544390
_WL3=1.392220
_WLRATIO=0.500000
_ANODE='Cu'
; (Data for Range number 1)
_DRIVE='THETA'
_STEPTIME=1.000000
_STEPSIZE=0.040000
_STEPMODE='S'
_START=-1.000000
_THETA=-1.000000
_2THETA=0.000000
_KHI=0.000000
_PHI=92.46
_X=-2.264000
_Y=0.000000
_Z=0.235000
_DIVERGENCE=0.000000
_ANTISCATTER=0.000000
_DETECTOR=5
_DETECTORSLIT='unkn'
_AUX1=0.000000
_AUX2=0.000000
_AUX3=0.000000
_TIMESTARTED=5.000000
_TEMP_RATE=-1.000000
_TEMP_DELAY=-1.000000
_KV=40
_MA=35
_RANGE_WL=1.540600
_3DPLANE=0
_GONIOMETER=0.000000
_PSDCHANNEL0=0
_2THETACOUNTS
  -1.0000         4
  -0.9600         6
  -0.9200        10
  -0.8800        12
  -0.8400        11
  -0.8000        21
  -0.7600        31
  -0.7200        36
  -0.6800        55
  -0.6400        86
  -0.6000       124
  -0.5600       215
  -0.5200      1295
  -0.4800     10289
  -0.4400     28945
  -0.4000     54968
  -0.3600     87825
  -0.3200    127284
  -0.2800    171273
  -0.2400    240223
  -0.2000    265551
  -0.1600    326539
  -0.1200    385212
  -0.0800    448467
  -0.0400    508531
   0.0000    561793
   0.0400    619257
   0.0800    688848
   0.1200    659792
   0.1600    603931
   0.2000    545693
   0.2400    488568
   0.2800    432177
   0.3200    369846
   0.3600    311600
   0.4000    259657
   0.4400    210867
   0.4800    164494
   0.5200    141255
   0.5600     92243
   0.6000     65147
   0.6400     40079
   0.6800     20041
   0.7200      6295
   0.7600       593
   0.8000       143
   0.8400        77
   0.8800        62
   0.9200        40
   0.9600        33
   1.0000        27

File: Rocking2.UXD
; C:\DIFFDAT1\Praktikum\V44_Hach_Kob\Rocking2.raw(Diffrac Plus V1.01 file) converted by XCH V1.0
_FILEVERSION=2
_SITE='Deutschland'
_USER='Administrator'
_GONIOMETER_CODE=4885
; D8 Theta/Theta; Special
_SAMPLE_CHANGER_CODE=0
_ATTACHMENTS_CODE=0
_GONIOMETER_RADIUS=350
_FIXED_DIVSLIT=0.600000
_FIXED_SAMPLESLIT=0.000000
_FIXED_DETSLIT=11.66
_MONOCHROMATOR=0
; None
_THIN_FILM='N'
_BETA_FILTER='Y'
_FIXED_ANTISLIT=8.340000
_ANALYZER_CODE=0
; None
_DATEMEASURED='18-Dec-2023 08:56:15'
_WL_UNIT='A'
_WL1=1.540600
_WL2=1.544390
_WL3=1.392220
_WLRATIO=0.500000
_ANODE='Cu'
; (Data for Range number 1)
_DRIVE='THETA'
_STEPTIME=1.000000
_STEPSIZE=0.005000
_STEPMODE='S'
_START=0.000000
_THETA=0.000000
_2THETA=0.300000
_KHI=0.000000
_PHI=92.46
_X=-2.264000
_Y=0.000000
_Z=0.242000
_DIVERGENCE=0.000000
_ANTISCATTER=0.000000
_DETECTOR=5
_DETECTORSLIT='unkn'
_AUX1=0.000000
_AUX2=0.000000
_AUX3=0.000000
_TIMESTARTED=2.000000
_TEMP_RATE=-1.000000
_TEMP_DELAY=-1.000000
_KV=40
_MA=35
_RANGE_WL=1.540600
_3DPLANE=0
_GONIOMETER=0.300000
_PSDCHANNEL0=0
_2THETACOUNTS
   0.0000      2784
   0.0050      2779
   0.0100      2874
   0.0150      2801
   0.0200      2697
   0.0250      2854
   0.0300      2817
   0.0350      2684
   0.0400      2838
   0.0450      2747
   0.0500      2721
   0.0550      2698
   0.0600      2886
   0.0650      2825
   0.0700      2720
   0.0750      2817
   0.0800      2772
   0.0850      2764
   0.0900      2770
   0.0950      2711
   0.1000      2827
   0.1050      2822
   0.1100      2790
   0.1150      2828
   0.1200      2876
   0.1250      2921
   0.1300      2900
   0.1350      2984
   0.1400      3050
   0.1450      3325
   0.1500      3459
   0.1550      3650
   0.1600      4157
   0.1650      4725
   0.1700      5685
   0.1750      6724
   0.1800      8893
   0.1850     12226
   0.1900     17852
   0.1950     24113
   0.2000     29350
   0.2050     34775
   0.2100     43541
   0.2150     64848
   0.2200    115384
   0.2250    181409
   0.2300    270125
   0.2350    304411
   0.2400    348501
   0.2450    348066
   0.2500    298012
   0.2550    209484
   0.2600     93091
   0.2650     64681
   0.2700     41026
   0.2750     32548
   0.2800     28098
   0.2850     24035
   0.2900     19408
   0.2950     15158
   0.3000     11130

File: Rocking3.UXD
; C:\DIFFDAT1\Praktikum\V44_Hach_Kob\Rocking3.raw(Diffrac Plus V1.01 file) converted by XCH V1.0
_FILEVERSION=2
_SITE='Deutschland'
_USER='Administrator'
_GONIOMETER_CODE=4885
; D8 Theta/Theta; Special
_SAMPLE_CHANGER_CODE=0
_ATTACHMENTS_CODE=0
_GONIOMETER_RADIUS=350
_FIXED_DIVSLIT=0.600000
_FIXED_SAMPLESLIT=0.000000
_FIXED_DETSLIT=11.66
_MONOCHROMATOR=0
; None
_THIN_FILM='N'
_BETA_FILTER='Y'
_FIXED_ANTISLIT=8.340000
_ANALYZER_CODE=0
; None
_DATEMEASURED='18-Dec-2023 09:04:11'
_WL_UNIT='A'
_WL1=1.540600
_WL2=1.544390
_WL3=1.392220
_WLRATIO=0.500000
_ANODE='Cu'
; (Data for Range number 1)
_DRIVE='THETA'
_STEPTIME=1.000000
_STEPSIZE=0.005000
_STEPMODE='S'
_START=0.200000
_THETA=0.200000
_2THETA=0.300000
_KHI=0.000000
_PHI=92.46
_X=-2.264000
_Y=0.000000
_Z=0.249000
_DIVERGENCE=0.000000
_ANTISCATTER=0.000000
_DETECTOR=5
_DETECTORSLIT='unkn'
_AUX1=0.000000
_AUX2=0.000000
_AUX3=0.000000
_TIMESTARTED=2.000000
_TEMP_RATE=-1.000000
_TEMP_DELAY=-1.000000
_KV=40
_MA=35
_RANGE_WL=1.540600
_3DPLANE=0
_GONIOMETER=0.300000
_PSDCHANNEL0=0
_2THETACOUNTS
   0.2000     15871
   0.2050     13763
   0.2100     10384
   0.2150      8180
   0.2200      6339
   0.2250      5300
   0.2300      4626
   0.2350      4129
   0.2400      3720
   0.2450      3430
   0.2500      3269
   0.2550      3091
   0.2600      3089
   0.2650      2926
   0.2700      2886
   0.2750      2873
   0.2800      2731
   0.2850      2840
   0.2900      2733
   0.2950      2641
   0.3000      2675
   0.3050      2706
   0.3100      2575
   0.3150      2657
   0.3200      2565
   0.3250      2699
   0.3300      2606
   0.3350      2685
   0.3400      2733
   0.3450      2667
   0.3500      2658
   0.3550      2663
   0.3600      2568
   0.3650      2610
   0.3700      2648
   0.3750      2676
   0.3800      2620
   0.3850      2650
   0.3900      2614
   0.3950      2738
   0.4000      2685
   0.4050      2803
   0.4100      2632
   0.4150      2668
   0.4200      2708
   0.4250      2711
   0.4300      2714
   0.4350      2657
   0.4400      2534
   0.4450      2668
   0.4500      2614
   0.4550      2646
   0.4600      2606
   0.4650      2690
   0.4700      2716
   0.4750      2703
   0.4800      2633
   0.4850      2664
   0.4900      2593
   0.4950      2693
   0.5000      2646

File: xScan.UXD
; C:\DIFFDAT1\Praktikum\V44_Hach_Kob\xScan.raw(Diffrac Plus V1.01 file) converted by XCH V1.0
_FILEVERSION=2
_SITE='Deutschland'
_USER='Administrator'
_GONIOMETER_CODE=4885
; D8 Theta/Theta; Special
_SAMPLE_CHANGER_CODE=0
_ATTACHMENTS_CODE=0
_GONIOMETER_RADIUS=350
_FIXED_DIVSLIT=0.600000
_FIXED_SAMPLESLIT=0.000000
_FIXED_DETSLIT=11.66
_MONOCHROMATOR=0
; None
_THIN_FILM='N'
_BETA_FILTER='Y'
_FIXED_ANTISLIT=8.340000
_ANALYZER_CODE=0
; None
_DATEMEASURED='18-Dec-2023 08:46:48'
_WL_UNIT='A'
_WL1=1.540600
_WL2=1.544390
_WL3=1.392220
_WLRATIO=0.500000
_ANODE='Cu'
; (Data for Range number 1)
_DRIVE='X'
_STEPTIME=1.000000
_STEPSIZE=1.000000
_STEPMODE='S'
_START=-20
_THETA=0.000000
_2THETA=0.000000
_KHI=0.000000
_PHI=92.46
_X=-20
_Y=0.000000
_Z=0.235000
_DIVERGENCE=0.000000
_ANTISCATTER=0.000000
_DETECTOR=5
_DETECTORSLIT='unkn'
_AUX1=0.000000
_AUX2=0.000000
_AUX3=0.000000
_TIMESTARTED=5.000000
_TEMP_RATE=-1.000000
_TEMP_DELAY=-1.000000
_KV=40
_MA=35
_RANGE_WL=1.540600
_3DPLANE=0
_GONIOMETER=0.000000
_PSDCHANNEL0=0
_2THETACOUNTS
 -20.0000   1270340
 -19.0000   1274120
 -18.0000   1275120
 -17.0000   1269490
 -16.0000   1271800
 -15.0000    970878
 -14.0000    534498
 -13.0000    542501
 -12.0000    540107
 -11.0000    546830
 -10.0000    555331
  -9.0000    562046
  -8.0000    564139
  -7.0000    570712
  -6.0000    571020
  -5.0000    574133
  -4.0000    581211
  -3.0000    594831
  -2.0000    599894
  -1.0000    603505
   0.0000    610180
   1.0000    613830
   2.0000    613530
   3.0000    623397
   4.0000    627363
   5.0000    638154
   6.0000    641464
   7.0000    640682
   8.0000    799725
   9.0000   1194700
  10.0000   1271830
  11.0000   1267550
  12.0000   1271160
  13.0000   1273190
  14.0000   1272300
  15.0000   1272050
  16.0000   1275570
  17.0000   1281580
  18.0000   1274980
  19.0000   1271370
  20.0000   1273120

File: ZScan2.UXD
; C:\DIFFDAT1\Praktikum\V44_Hach_Kob\ZScan2.raw(Diffrac Plus V1.01 file) converted by XCH V1.0
_FILEVERSION=2
_SITE='Deutschland'
_USER='Administrator'
_GONIOMETER_CODE=4885
; D8 Theta/Theta; Special
_SAMPLE_CHANGER_CODE=0
_ATTACHMENTS_CODE=0
_GONIOMETER_RADIUS=350
_FIXED_DIVSLIT=0.600000
_FIXED_SAMPLESLIT=0.000000
_FIXED_DETSLIT=11.66
_MONOCHROMATOR=0
; None
_THIN_FILM='N'
_BETA_FILTER='Y'
_FIXED_ANTISLIT=8.340000
_ANALYZER_CODE=0
; None
_DATEMEASURED='18-Dec-2023 08:52:44'
_WL_UNIT='A'
_WL1=1.540600
_WL2=1.544390
_WL3=1.392220
_WLRATIO=0.500000
_ANODE='Cu'
; (Data for Range number 1)
_DRIVE='Z'
_STEPTIME=1.000000
_STEPSIZE=0.020000
_STEPMODE='S'
_START=-0.500000
_THETA=0.081600
_2THETA=0.000000
_KHI=0.000000
_PHI=92.46
_X=-2.264000
_Y=0.000000
_Z=-0.500000
_DIVERGENCE=0.000000
_ANTISCATTER=0.000000
_DETECTOR=5
_DETECTORSLIT='unkn'
_AUX1=0.000000
_AUX2=0.000000
_AUX3=0.000000
_TIMESTARTED=3.000000
_TEMP_RATE=-1.000000
_TEMP_DELAY=-1.000000
_KV=40
_MA=35
_RANGE_WL=1.540600
_3DPLANE=0
_GONIOMETER=0.000000
_PSDCHANNEL0=0
_2THETACOUNTS
  -0.5000   1251300
  -0.4800   1249020
  -0.4600   1250490
  -0.4400   1256070
  -0.4200   1251500
  -0.4000   1250400
  -0.3800   1250580
  -0.3600   1251150
  -0.3400   1250080
  -0.3200   1246830
  -0.3000   1252150
  -0.2800   1247630
  -0.2600   1245210
  -0.2400   1247210
  -0.2200   1251040
  -0.2000   1249330
  -0.1800   1253290
  -0.1600   1247070
  -0.1400   1241080
  -0.1200   1258230
  -0.1000   1253850
  -0.0800   1248730
  -0.0600   1253390
  -0.0400   1253790
  -0.0200   1249860
   0.0000   1253470
   0.0200   1254430
   0.0400   1262820
   0.0600   1266420
   0.0800   1265710
   0.1000   1269100
   0.1200   1271660
   0.1400   1280330
   0.1600   1235790
   0.1800   1142560
   0.2000   1002780
   0.2200    838253
   0.2400    667961
   0.2600    494106
   0.2800    317098
   0.3000    167275
   0.3200     55542
   0.3400      4272
   0.3600       115
   0.3800        27
   0.4000         8
   0.4200         4
   0.4400         3
   0.4600         0
   0.4800         0
   0.5000         0

File: ZScan3.UXD
; C:\DIFFDAT1\Praktikum\V44_Hach_Kob\ZScan3.raw(Diffrac Plus V1.01 file) converted by XCH V1.0
_FILEVERSION=2
_SITE='Deutschland'
_USER='Administrator'
_GONIOMETER_CODE=4885
; D8 Theta/Theta; Special
_SAMPLE_CHANGER_CODE=0
_ATTACHMENTS_CODE=0
_GONIOMETER_RADIUS=350
_FIXED_DIVSLIT=0.600000
_FIXED_SAMPLESLIT=0.000000
_FIXED_DETSLIT=11.66
_MONOCHROMATOR=0
; None
_THIN_FILM='N'
_BETA_FILTER='Y'
_FIXED_ANTISLIT=8.340000
_ANALYZER_CODE=0
; None
_DATEMEASURED='18-Dec-2023 09:01:11'
_WL_UNIT='A'
_WL1=1.540600
_WL2=1.544390
_WL3=1.392220
_WLRATIO=0.500000
_ANODE='Cu'
; (Data for Range number 1)
_DRIVE='Z'
_STEPTIME=1.000000
_STEPSIZE=0.020000
_STEPMODE='S'
_START=-0.500000
_THETA=0.209000
_2THETA=0.300000
_KHI=0.000000
_PHI=92.46
_X=-2.264000
_Y=0.000000
_Z=-0.500000
_DIVERGENCE=0.000000
_ANTISCATTER=0.000000
_DETECTOR=5
_DETECTORSLIT='unkn'
_AUX1=0.000000
_AUX2=0.000000
_AUX3=0.000000
_TIMESTARTED=2.000000
_TEMP_RATE=-1.000000
_TEMP_DELAY=-1.000000
_KV=40
_MA=35
_RANGE_WL=1.540600
_3DPLANE=0
_GONIOMETER=0.300000
_PSDCHANNEL0=0
_2THETACOUNTS
  -0.5000      2750
  -0.4800      2765
  -0.4600      2706
  -0.4400      2794
  -0.4200      2760
  -0.4000      2741
  -0.3800      2731
  -0.3600      2745
  -0.3400      2643
  -0.3200      2793
  -0.3000      2732
  -0.2800      2785
  -0.2600      2718
  -0.2400      2781
  -0.2200      2737
  -0.2000      2748
  -0.1800      2721
  -0.1600      2756
  -0.1400      2795
  -0.1200      2686
  -0.1000      2731
  -0.0800      2706
  -0.0600      2730
  -0.0400      2790
  -0.0200      2839
   0.0000      2852
   0.0200      2903
   0.0400      3027
   0.0600      3247
   0.0800      3599
   0.1000      4140
   0.1200      4891
   0.1400      5884
   0.1600      7187
   0.1800      8544
   0.2000     10028
   0.2200     10784
   0.2400     11141
   0.2600     11108
   0.2800     10736
   0.3000     10253
   0.3200      9463
   0.3400      8607
   0.3600      7376
   0.3800      6382
   0.4000      5719
   0.4200      4971
   0.4400      4443
   0.4600      4096
   0.4800      3661
   0.5000      3274

File: ZScan.UXD
; C:\DIFFDAT1\Praktikum\V44_Hach_Kob\ZScan.raw(Diffrac Plus V1.01 file) converted by XCH V1.0
_FILEVERSION=2
_SITE='Deutschland'
_USER='Administrator'
_GONIOMETER_CODE=4885
; D8 Theta/Theta; Special
_SAMPLE_CHANGER_CODE=0
_ATTACHMENTS_CODE=0
_GONIOMETER_RADIUS=350
_FIXED_DIVSLIT=0.600000
_FIXED_SAMPLESLIT=0.000000
_FIXED_DETSLIT=11.66
_MONOCHROMATOR=0
; None
_THIN_FILM='N'
_BETA_FILTER='Y'
_FIXED_ANTISLIT=8.340000
_ANALYZER_CODE=0
; None
_DATEMEASURED='18-Dec-2023 08:42:01'
_WL_UNIT='A'
_WL1=1.540600
_WL2=1.544390
_WL3=1.392220
_WLRATIO=0.500000
_ANODE='Cu'
; (Data for Range number 1)
_DRIVE='Z'
_STEPTIME=1.000000
_STEPSIZE=0.040000
_STEPMODE='S'
_START=-1.000000
_THETA=0.000000
_2THETA=0.000000
_KHI=0.000000
_PHI=92.46
_X=-0.016000
_Y=0.000000
_Z=-1.000000
_DIVERGENCE=0.000000
_ANTISCATTER=0.000000
_DETECTOR=5
_DETECTORSLIT='unkn'
_AUX1=0.000000
_AUX2=0.000000
_AUX3=0.000000
_TIMESTARTED=8.000000
_TEMP_RATE=-1.000000
_TEMP_DELAY=-1.000000
_KV=40
_MA=35
_RANGE_WL=1.540600
_3DPLANE=0
_GONIOMETER=0.000000
_PSDCHANNEL0=0
_2THETACOUNTS
  -1.0000   1273510
  -0.9600   1271920
  -0.9200   1284300
  -0.8800   1276960
  -0.8400   1283730
  -0.8000   1278250
  -0.7600   1273230
  -0.7200   1278770
  -0.6800   1274100
  -0.6400   1279190
  -0.6000   1278770
  -0.5600   1284110
  -0.5200   1279270
  -0.4800   1273760
  -0.4400   1275530
  -0.4000   1279990
  -0.3600   1277620
  -0.3200   1282190
  -0.2800   1281770
  -0.2400   1282330
  -0.2000   1278360
  -0.1600   1285110
  -0.1200   1274140
  -0.0800   1273350
  -0.0400   1281000
   0.0000   1276270
   0.0400   1281760
   0.0800   1281920
   0.1200   1283510
   0.1600   1194480
   0.2000    920571
   0.2400    585722
   0.2800    242119
   0.3200     15091
   0.3600        68
   0.4000        13
   0.4400        13
   0.4800        38
   0.5200        88
   0.5600       247
   0.6000       588
   0.6400      1197
   0.6800      2411
   0.7200      4722
   0.7600      9389
   0.8000     14474
   0.8400     23913
   0.8800     46581
   0.9200     55058
   0.9600     56587
   1.0000     39419