Folder: FP-Versuchsprotokolle/v44/content/Data

Note: README.md
# FP-Versuchsprotokolle
Versuchsprotokolle zum Fortgeschrittenenpraktikum der TU Dortmund von Tabea H. und Steffen K.

File: detector-scan.UXD
#; C:\DIFFDAT1\Praktikum\Knierim_Karas\detector-scan.raw(Diffrac Plus V1.01 file) converted by XCH V1.0
#_FILEVERSION=2
#_SITE='Deutschland'
#_USER='Administrator'
#_GONIOMETER_CODE=4885
#; D8 Theta/Theta; Special
#_SAMPLE_CHANGER_CODE=0
#_ATTACHMENTS_CODE=0
#_GONIOMETER_RADIUS=350
#_FIXED_DIVSLIT=0.600000
#_FIXED_SAMPLESLIT=0.000000
#_FIXED_DETSLIT=11.66
#_MONOCHROMATOR=0
#; None
#_THIN_FILM='N'
#_BETA_FILTER='Y'
#_FIXED_ANTISLIT=8.340000
#_ANALYZER_CODE=0
#; None
#_DATEMEASURED='27-Nov-2023 09:53:43'
#_WL_UNIT='A'
#_WL1=1.540600
#_WL2=1.544390
#_WL3=1.392220
#_WLRATIO=0.500000
#_ANODE='Cu'
#; (Data for Range number 1)
#_DRIVE='2THETA'
#_STEPTIME=1.000000
#_STEPSIZE=0.020000
#_STEPMODE='S'
#_START=-0.500000
#_THETA=0.000000
#_2THETA=-0.500000
#_KHI=0.000000
#_PHI=92.46
#_X=0.544000
#_Y=1.000000
#_Z=-5.000000
#_DIVERGENCE=0.000000
#_ANTISCATTER=0.000000
#_DETECTOR=5
#_DETECTORSLIT='unkn'
#_AUX1=0.000000
#_AUX2=0.000000
#_AUX3=0.000000
#_TIMESTARTED=2.000000
#_TEMP_RATE=-1.000000
#_TEMP_DELAY=-1.000000
#_KV=40
#_MA=35
#_RANGE_WL=1.540600
#_3DPLANE=0
#_GONIOMETER=-0.500000
#_PSDCHANNEL0=0
#_2THETACOUNTS
  -0.5000      1261
  -0.4800      1725
  -0.4600      2221
  -0.4400      2958
  -0.4200      3696
  -0.4000      4796
  -0.3800      6071
  -0.3600      7718
  -0.3400      9602
  -0.3200     12043
  -0.3000     14571
  -0.2800     18669
  -0.2600     23837
  -0.2400     31357
  -0.2200     41920
  -0.2000     57780
  -0.1800     82438
  -0.1600    126700
  -0.1400    203038
  -0.1200    409560
  -0.1000    856652
  -0.0800   1419230
  -0.0600   1922340
  -0.0400   2390230
  -0.0200   2613450
   0.0000   2708280
   0.0200   2704040
   0.0400   2516250
   0.0600   2150120
   0.0800   1643390
   0.1000   1133760
   0.1200    600732
   0.1400    334138
   0.1600    205337
   0.1800    145897
   0.2000    100875
   0.2200     70587
   0.2400     47744
   0.2600     27814
   0.2800     16462
   0.3000     12221
   0.3200      9733
   0.3400      7828
   0.3600      6244
   0.3800      4995
   0.4000      3686
   0.4200      2662
   0.4400      2037
   0.4600      1692
   0.4800      1402
   0.5000      1013

File: diffuse.UXD
#; C:\DIFFDAT1\Praktikum\Knierim_Karas\diffuse.raw(Diffrac Plus V1.01 file) converted by XCH V1.0
#_FILEVERSION=2
#_SITE='Deutschland'
#_USER='Administrator'
#_GONIOMETER_CODE=4885
#; D8 Theta/Theta; Special
#_SAMPLE_CHANGER_CODE=0
#_ATTACHMENTS_CODE=0
#_GONIOMETER_RADIUS=350
#_FIXED_DIVSLIT=0.600000
#_FIXED_SAMPLESLIT=0.000000
#_FIXED_DETSLIT=11.66
#_MONOCHROMATOR=0
#; None
#_THIN_FILM='N'
#_BETA_FILTER='Y'
#_FIXED_ANTISLIT=8.340000
#_ANALYZER_CODE=0
#; None
#_DATEMEASURED='27-Nov-2023 11:23:04'
#_WL_UNIT='A'
#_WL1=1.540600
#_WL2=1.544390
#_WL3=1.392220
#_WLRATIO=0.500000
#_ANODE='Cu'
#; (Data for Range number 1)
#_DRIVE='THETA'
#_STEPTIME=5.000660
#_STEPSIZE=0.005000
#_STEPMODE='C'
#_START=0.000000
#_THETA=0.000000
#_2THETA=0.200000
#_KHI=0.000000
#_PHI=92.46
#_X=-2.045000
#_Y=1.000000
#_Z=-0.038000
#_DIVERGENCE=0.000000
#_ANTISCATTER=0.000000
#_DETECTOR=5
#_DETECTORSLIT='unkn'
#_AUX1=0.000000
#_AUX2=0.000000
#_AUX3=0.000000
#_TIMESTARTED=2.000000
#_TEMP_RATE=-1.000000
#_TEMP_DELAY=-1.000000
#_KV=40
#_MA=35
#_RANGE_WL=1.540600
#_3DPLANE=0
#_GONIOMETER=0.197500
#_PSDCHANNEL0=0
#_2THETACOUNTS
   0.0000    484036
   0.0100    349999
   0.0200    239696
   0.0300    144678
   0.0400     85826
   0.0500     66530
   0.0600     54433
   0.0700     45184
   0.0800     37244
   0.0900     30846
   0.1000     24858
   0.1100     20114
   0.1200     16901
   0.1300     14448
   0.1400     12803
   0.1500     11271
   0.1600     10178
   0.1700      9414
   0.1800      8552
   0.1900      7876
   0.2000      7212
   0.2100      6873
   0.2200      6102
   0.2300      5265
   0.2400      4666
   0.2500      3984
   0.2600      3504
   0.2700      3155
   0.2800      2921
   0.2900      2622
   0.3000      2455
   0.3100      2431
   0.3200      2184
   0.3300      2210
   0.3400      2059
   0.3500      1940
   0.3600      1871
   0.3700      1893
   0.3800      1803
   0.3900      1816
   0.4000      1598
   0.4100      1603
   0.4200      1452
   0.4300      1387
   0.4400      1277
   0.4500      1245
   0.4600      1128
   0.4700       946
   0.4800       927
   0.4900       844
   0.5000       742
   0.5100       644
   0.5200       580
   0.5300       506
   0.5400       418
   0.5500       372
   0.5600       361
   0.5700       310
   0.5800       229
   0.5900       164
   0.6000        71
   0.6100        51
   0.6200        64
   0.6300        56
   0.6400        62
   0.6500        51
   0.6600        51
   0.6700        47
   0.6800        52
   0.6900        54
   0.7000        36
   0.7100        37
   0.7200        40
   0.7300        34
   0.7400        33
   0.7500        48
   0.7600        29
   0.7700        32
   0.7800        25
   0.7900        36
   0.8000        25
   0.8100        17
   0.8200        26
   0.8300        20
   0.8400        16
   0.8500        21
   0.8600        19
   0.8700        25
   0.8800        13
   0.8900        16
   0.9000        25
   0.9100        13
   0.9200        21
   0.9300        12
   0.9400        16
   0.9500        14
   0.9600         9
   0.9700        20
   0.9800        15
   0.9900         8
   1.0000        14
   1.0100        10
   1.0200        11
   1.0300        17
   1.0400         9
   1.0500        15
   1.0600         7
   1.0700        16
   1.0800        10
   1.0900        12
   1.1000         4
   1.1100         5
   1.1200         5
   1.1300        14
   1.1400         9
   1.1500         8
   1.1600         6
   1.1700        11
   1.1800         9
   1.1900         7
   1.2000         9
   1.2100         7
   1.2200         4
   1.2300        12
   1.2400         4
   1.2500         6
   1.2600         4
   1.2700         5
   1.2800         5
   1.2900         3
   1.3000         5
   1.3100         7
   1.3200         9
   1.3300         6
   1.3400         1
   1.3500         7
   1.3600         3
   1.3700         6
   1.3800         3
   1.3900         9
   1.4000         5
   1.4100         2
   1.4200         4
   1.4300         7
   1.4400         3
   1.4500         5
   1.4600         2
   1.4700         3
   1.4800         3
   1.4900         4
   1.5000         4
   1.5100         4
   1.5200         5
   1.5300         4
   1.5400         0
   1.5500         4
   1.5600         4
   1.5700         0
   1.5800         4
   1.5900         3
   1.6000         2
   1.6100         5
   1.6200         8
   1.6300         3
   1.6400         4
   1.6500         3
   1.6600         2
   1.6700         2
   1.6800         1
   1.6900         2
   1.7000         4
   1.7100         2
   1.7200         3
   1.7300         4
   1.7400         2
   1.7500         1
   1.7600         0
   1.7700         3
   1.7800         3
   1.7900         3
   1.8000         3
   1.8100         6
   1.8200         2
   1.8300         1
   1.8400         3
   1.8500         3
   1.8600         2
   1.8700         4
   1.8800         4
   1.8900         3
   1.9000         4
   1.9100         4
   1.9200         6
   1.9300         2
   1.9400         3
   1.9500         1
   1.9600         3
   1.9700         4
   1.9800         0
   1.9900         1
   2.0000         3
   2.0100         4
   2.0200         3
   2.0300         2
   2.0400         3
   2.0500         3
   2.0600         3
   2.0700         1
   2.0800         4
   2.0900         4
   2.1000         2
   2.1100         2
   2.1200         1
   2.1300         2
   2.1400         1
   2.1500         4
   2.1600         1
   2.1700         5
   2.1800         2
   2.1900         3
   2.2000         0
   2.2100         2
   2.2200         1
   2.2300         1
   2.2400         2
   2.2500         0
   2.2600         4
   2.2700         2
   2.2800         2
   2.2900         2
   2.3000         3
   2.3100         3
   2.3200         2
   2.3300         3
   2.3400         3
   2.3500         2
   2.3600         5
   2.3700         3
   2.3800         1
   2.3900         0
   2.4000         2
   2.4100         3
   2.4200         2
   2.4300         0
   2.4400         1
   2.4500         2
   2.4600         2
   2.4700         2
   2.4800         1
   2.4900         1
   2.5000         2

File: reflectivity.UXD
#; C:\DIFFDAT1\Praktikum\Knierim_Karas\reflectivity.raw(Diffrac Plus V1.01 file) converted by XCH V1.0
#_FILEVERSION=2
#_SITE='Deutschland'
#_USER='Administrator'
#_GONIOMETER_CODE=4885
#; D8 Theta/Theta; Special
#_SAMPLE_CHANGER_CODE=0
#_ATTACHMENTS_CODE=0
#_GONIOMETER_RADIUS=350
#_FIXED_DIVSLIT=0.600000
#_FIXED_SAMPLESLIT=0.000000
#_FIXED_DETSLIT=11.66
#_MONOCHROMATOR=0
#; None
#_THIN_FILM='N'
#_BETA_FILTER='Y'
#_FIXED_ANTISLIT=8.340000
#_ANALYZER_CODE=0
#; None
#_DATEMEASURED='27-Nov-2023 10:39:13'
#_WL_UNIT='A'
#_WL1=1.540600
#_WL2=1.544390
#_WL3=1.392220
#_WLRATIO=0.500000
#_ANODE='Cu'
#; (Data for Range number 1)
#_DRIVE='THETA'
#_STEPTIME=5.000660
#_STEPSIZE=0.005000
#_STEPMODE='C'
#_START=0.000000
#_THETA=0.000000
#_2THETA=0.000000
#_KHI=0.000000
#_PHI=92.46
#_X=-2.045000
#_Y=1.000000
#_Z=-0.038000
#_DIVERGENCE=0.000000
#_ANTISCATTER=0.000000
#_DETECTOR=5
#_DETECTORSLIT='unkn'
#_AUX1=0.000000
#_AUX2=0.000000
#_AUX3=0.000000
#_TIMESTARTED=2.000000
#_TEMP_RATE=-1.000000
#_TEMP_DELAY=-1.000000
#_KV=40
#_MA=35
#_RANGE_WL=1.540600
#_3DPLANE=0
#_GONIOMETER=-0.002500
#_PSDCHANNEL0=0
#_2THETACOUNTS
   0.0000   6648740
   0.0100   7037030
   0.0200   7358860
   0.0300   7473140
   0.0400   6964740
   0.0500   5950190
   0.0600   3693920
   0.0700   2683710
   0.0800   2335670
   0.0900   2233390
   0.1000   2250870
   0.1100   2348140
   0.1200   2470520
   0.1300   2607800
   0.1400   2771620
   0.1500   2963860
   0.1600   3104260
   0.1700   3238380
   0.1800   3357660
   0.1900   3437180
   0.2000   3498740
   0.2100   3516170
   0.2200   3440550
   0.2300   3188440
   0.2400   2756440
   0.2500   2198100
   0.2600   1561770
   0.2700    931118
   0.2800    520370
   0.2900    333601
   0.3000    281917
   0.3100    221310
   0.3200    152195
   0.3300    119333
   0.3400    114191
   0.3500    103625
   0.3600     80655
   0.3700     62284
   0.3800     58331
   0.3900     57849
   0.4000     50852
   0.4100     40135
   0.4200     33851
   0.4300     34070
   0.4400     33459
   0.4500     28753
   0.4600     23517
   0.4700     21174
   0.4800     21559
   0.4900     21127
   0.5000     18338
   0.5100     15006
   0.5200     13762
   0.5300     14052
   0.5400     13540
   0.5500     12023
   0.5600      9933
   0.5700      9188
   0.5800      9321
   0.5900      9146
   0.6000      8149
   0.6100      6686
   0.6200      6221
   0.6300      6379
   0.6400      6254
   0.6500      5690
   0.6600      4798
   0.6700      4264
   0.6800      4301
   0.6900      4188
   0.7000      3775
   0.7100      3281
   0.7200      2896
   0.7300      2826
   0.7400      2878
   0.7500      2778
   0.7600      2390
   0.7700      2067
   0.7800      2037
   0.7900      2071
   0.8000      2115
   0.8100      1873
   0.8200      1625
   0.8300      1416
   0.8400      1449
   0.8500      1464
   0.8600      1377
   0.8700      1233
   0.8800      1021
   0.8900      1036
   0.9000      1091
   0.9100      1011
   0.9200       952
   0.9300       806
   0.9400       731
   0.9500       810
   0.9600       776
   0.9700       694
   0.9800       603
   0.9900       509
   1.0000       566
   1.0100       579
   1.0200       543
   1.0300       517
   1.0400       458
   1.0500       438
   1.0600       405
   1.0700       431
   1.0800       366
   1.0900       308
   1.1000       301
   1.1100       299
   1.1200       284
   1.1300       314
   1.1400       232
   1.1500       253
   1.1600       227
   1.1700       234
   1.1800       174
   1.1900       187
   1.2000       174
   1.2100       161
   1.2200       169
   1.2300       185
   1.2400       173
   1.2500       156
   1.2600       122
   1.2700       138
   1.2800       141
   1.2900       117
   1.3000       116
   1.3100        89
   1.3200       108
   1.3300        85
   1.3400        82
   1.3500        87
   1.3600        85
   1.3700        74
   1.3800        82
   1.3900       102
   1.4000        67
   1.4100        53
   1.4200        49
   1.4300        53
   1.4400        54
   1.4500        56
   1.4600        53
   1.4700        51
   1.4800        51
   1.4900        35
   1.5000        49
   1.5100        37
   1.5200        48
   1.5300        30
   1.5400        46
   1.5500        31
   1.5600        42
   1.5700        34
   1.5800        35
   1.5900        34
   1.6000        25
   1.6100        34
   1.6200        25
   1.6300        28
   1.6400        26
   1.6500        21
   1.6600        19
   1.6700        17
   1.6800        14
   1.6900        20
   1.7000        18
   1.7100        24
   1.7200        20
   1.7300        20
   1.7400        21
   1.7500        17
   1.7600        26
   1.7700        21
   1.7800        13
   1.7900        18
   1.8000        16
   1.8100        12
   1.8200        14
   1.8300        11
   1.8400         8
   1.8500        11
   1.8600        12
   1.8700        12
   1.8800         8
   1.8900         9
   1.9000        10
   1.9100         9
   1.9200        10
   1.9300         8
   1.9400        16
   1.9500         4
   1.9600         4
   1.9700        13
   1.9800        10
   1.9900         7
   2.0000         7
   2.0100         8
   2.0200         9
   2.0300         8
   2.0400         5
   2.0500         5
   2.0600         9
   2.0700         3
   2.0800         7
   2.0900         6
   2.1000         6
   2.1100         4
   2.1200         8
   2.1300         4
   2.1400         6
   2.1500         8
   2.1600         7
   2.1700         3
   2.1800         7
   2.1900         7
   2.2000         4
   2.2100         5
   2.2200         4
   2.2300         3
   2.2400         3
   2.2500         4
   2.2600         5
   2.2700         5
   2.2800         8
   2.2900         2
   2.3000         4
   2.3100         3
   2.3200         2
   2.3300         3
   2.3400         2
   2.3500         2
   2.3600         5
   2.3700         2
   2.3800         4
   2.3900         2
   2.4000         4
   2.4100         4
   2.4200         2
   2.4300         3
   2.4400         1
   2.4500         4
   2.4600         2
   2.4700         2
   2.4800         2
   2.4900         1
   2.5000         5

File: rocking_1.UXD
#; C:\DIFFDAT1\Praktikum\Knierim_Karas\rocking_1.raw(Diffrac Plus V1.01 file) converted by XCH V1.0
#_FILEVERSION=2
#_SITE='Deutschland'
#_USER='Administrator'
#_GONIOMETER_CODE=4885
#; D8 Theta/Theta; Special
#_SAMPLE_CHANGER_CODE=0
#_ATTACHMENTS_CODE=0
#_GONIOMETER_RADIUS=350
#_FIXED_DIVSLIT=0.600000
#_FIXED_SAMPLESLIT=0.000000
#_FIXED_DETSLIT=11.66
#_MONOCHROMATOR=0
#; None
#_THIN_FILM='N'
#_BETA_FILTER='Y'
#_FIXED_ANTISLIT=8.340000
#_ANALYZER_CODE=0
#; None
#_DATEMEASURED='27-Nov-2023 10:04:07'
#_WL_UNIT='A'
#_WL1=1.540600
#_WL2=1.544390
#_WL3=1.392220
#_WLRATIO=0.500000
#_ANODE='Cu'
#; (Data for Range number 1)
#_DRIVE='THETA'
#_STEPTIME=1.000000
#_STEPSIZE=0.040000
#_STEPMODE='C'
#_START=-1.000000
#_THETA=-1.000000
#_2THETA=0.000000
#_KHI=0.000000
#_PHI=92.46
#_X=-2.045000
#_Y=1.000000
#_Z=-0.040000
#_DIVERGENCE=0.000000
#_ANTISCATTER=0.000000
#_DETECTOR=5
#_DETECTORSLIT='unkn'
#_AUX1=0.000000
#_AUX2=0.000000
#_AUX3=0.000000
#_TIMESTARTED=3.000000
#_TEMP_RATE=-1.000000
#_TEMP_DELAY=-1.000000
#_KV=40
#_MA=35
#_RANGE_WL=1.540600
#_3DPLANE=0
#_GONIOMETER=-0.002800
#_PSDCHANNEL0=0
#_2THETACOUNTS
  -1.0000      4035
  -0.9600      9745
  -0.9200     17529
  -0.8800     28334
  -0.8400     43256
  -0.8000     63252
  -0.7600     88711
  -0.7200    120003
  -0.6800    159700
  -0.6400    191780
  -0.6000    240760
  -0.5600    298517
  -0.5200    363361
  -0.4800    433181
  -0.4400    509637
  -0.4000    592745
  -0.3600    677804
  -0.3200    771593
  -0.2800    866670
  -0.2400    959890
  -0.2000   1060630
  -0.1600   1152660
  -0.1200   1253300
  -0.0800   1357480
  -0.0400   1470400
   0.0000   1554390
   0.0400   1490300
   0.0800   1356000
   0.1200   1266150
   0.1600   1179260
   0.2000   1087620
   0.2400   1000870
   0.2800    921788
   0.3200    833268
   0.3600    753415
   0.4000    673791
   0.4400    592042
   0.4800    524671
   0.5200    458674
   0.5600    392938
   0.6000    335426
   0.6400    282804
   0.6800    235823
   0.7200    196378
   0.7600    154216
   0.8000    129959
   0.8400    101726
   0.8800     76544
   0.9200     56646
   0.9600     41001
   1.0000     28089

File: rocking_1b2.UXD
#; C:\DIFFDAT1\Praktikum\Knierim_Karas\rocking_1b2.raw(Diffrac Plus V1.01 file) converted by XCH V1.0
#_FILEVERSION=2
#_SITE='Deutschland'
#_USER='Administrator'
#_GONIOMETER_CODE=4885
#; D8 Theta/Theta; Special
#_SAMPLE_CHANGER_CODE=0
#_ATTACHMENTS_CODE=0
#_GONIOMETER_RADIUS=350
#_FIXED_DIVSLIT=0.600000
#_FIXED_SAMPLESLIT=0.000000
#_FIXED_DETSLIT=11.66
#_MONOCHROMATOR=0
#; None
#_THIN_FILM='N'
#_BETA_FILTER='Y'
#_FIXED_ANTISLIT=8.340000
#_ANALYZER_CODE=0
#; None
#_DATEMEASURED='27-Nov-2023 10:27:49'
#_WL_UNIT='A'
#_WL1=1.540600
#_WL2=1.544390
#_WL3=1.392220
#_WLRATIO=0.500000
#_ANODE='Cu'
#; (Data for Range number 1)
#_DRIVE='THETA'
#_STEPTIME=1.000000
#_STEPSIZE=0.040000
#_STEPMODE='C'
#_START=-1.000000
#_THETA=-1.000000
#_2THETA=0.000000
#_KHI=0.000000
#_PHI=92.46
#_X=-2.045000
#_Y=1.000000
#_Z=-0.017000
#_DIVERGENCE=0.000000
#_ANTISCATTER=0.000000
#_DETECTOR=5
#_DETECTORSLIT='unkn'
#_AUX1=0.000000
#_AUX2=0.000000
#_AUX3=0.000000
#_TIMESTARTED=3.000000
#_TEMP_RATE=-1.000000
#_TEMP_DELAY=-1.000000
#_KV=40
#_MA=35
#_RANGE_WL=1.540600
#_3DPLANE=0
#_GONIOMETER=0.000000
#_PSDCHANNEL0=0
#_2THETACOUNTS
  -1.0000        15
  -0.9600        98
  -0.9200      1627
  -0.8800      6449
  -0.8400     13364
  -0.8000     23020
  -0.7600     36232
  -0.7200     53801
  -0.6800     77326
  -0.6400    106881
  -0.6000    142939
  -0.5600    186559
  -0.5200    218625
  -0.4800    274960
  -0.4400    334952
  -0.4000    405918
  -0.3600    479846
  -0.3200    562109
  -0.2800    647437
  -0.2400    732686
  -0.2000    827130
  -0.1600    915310
  -0.1200   1016290
  -0.0800   1111480
  -0.0400   1207610
   0.0000   1290280
   0.0400   1198750
   0.0800   1088130
   0.1200   1003850
   0.1600    924079
   0.2000    840931
   0.2400    761165
   0.2800    681920
   0.3200    602889
   0.3600    530374
   0.4000    459322
   0.4400    395466
   0.4800    337749
   0.5200    284732
   0.5600    236921
   0.6000    189971
   0.6400    153623
   0.6800    130035
   0.7200    101738
   0.7600     76710
   0.8000     56224
   0.8400     40800
   0.8800     27538
   0.9200     17803
   0.9600     10461
   1.0000      4902

File: rocking_1b.UXD
#; C:\DIFFDAT1\Praktikum\Knierim_Karas\rocking_1b.raw(Diffrac Plus V1.01 file) converted by XCH V1.0
#_FILEVERSION=2
#_SITE='Deutschland'
#_USER='Administrator'
#_GONIOMETER_CODE=4885
#; D8 Theta/Theta; Special
#_SAMPLE_CHANGER_CODE=0
#_ATTACHMENTS_CODE=0
#_GONIOMETER_RADIUS=350
#_FIXED_DIVSLIT=0.600000
#_FIXED_SAMPLESLIT=0.000000
#_FIXED_DETSLIT=11.66
#_MONOCHROMATOR=0
#; None
#_THIN_FILM='N'
#_BETA_FILTER='Y'
#_FIXED_ANTISLIT=8.340000
#_ANALYZER_CODE=0
#; None
#_DATEMEASURED='27-Nov-2023 10:22:47'
#_WL_UNIT='A'
#_WL1=1.540600
#_WL2=1.544390
#_WL3=1.392220
#_WLRATIO=0.500000
#_ANODE='Cu'
#; (Data for Range number 1)
#_DRIVE='THETA'
#_STEPTIME=1.000000
#_STEPSIZE=0.040000
#_STEPMODE='C'
#_START=-1.000000
#_THETA=-1.000000
#_2THETA=0.000000
#_KHI=0.000000
#_PHI=92.46
#_X=-2.045000
#_Y=1.000000
#_Z=-0.039000
#_DIVERGENCE=0.000000
#_ANTISCATTER=0.000000
#_DETECTOR=5
#_DETECTORSLIT='unkn'
#_AUX1=0.000000
#_AUX2=0.000000
#_AUX3=0.000000
#_TIMESTARTED=3.000000
#_TEMP_RATE=-1.000000
#_TEMP_DELAY=-1.000000
#_KV=40
#_MA=35
#_RANGE_WL=1.540600
#_3DPLANE=0
#_GONIOMETER=0.000000
#_PSDCHANNEL0=0
#_2THETACOUNTS
  -1.0000     43597
  -0.9600     63220
  -0.9200     90060
  -0.8800    122724
  -0.8400    163299
  -0.8000    196189
  -0.7600    249245
  -0.7200    309854
  -0.6800    374879
  -0.6400    445236
  -0.6000    517758
  -0.5600    605503
  -0.5200    691898
  -0.4800    779675
  -0.4400    873227
  -0.4000    965459
  -0.3600   1059110
  -0.3200   1164640
  -0.2800   1266650
  -0.2400   1370600
  -0.2000   1469920
  -0.1600   1573240
  -0.1200   1511870
  -0.0800   1376480
  -0.0400   1285500
   0.0000   1197590
   0.0400   1106430
   0.0800   1016040
   0.1200    934199
   0.1600    849203
   0.2000    769555
   0.2400    691771
   0.2800    620877
   0.3200    543820
   0.3600    477610
   0.4000    411756
   0.4400    350760
   0.4800    294006
   0.5200    243778
   0.5600    201885
   0.6000    159904
   0.6400    136714
   0.6800    106622
   0.7200     80674
   0.7600     59457
   0.8000     42648
   0.8400     28725
   0.8800     18834
   0.9200     11132
   0.9600      5370
   1.0000      1431

File: X_1.UXD
#; C:\DIFFDAT1\Praktikum\Knierim_Karas\X_1.raw(Diffrac Plus V1.01 file) converted by XCH V1.0
#_FILEVERSION=2
#_SITE='Deutschland'
#_USER='Administrator'
#_GONIOMETER_CODE=4885
#; D8 Theta/Theta; Special
#_SAMPLE_CHANGER_CODE=0
#_ATTACHMENTS_CODE=0
#_GONIOMETER_RADIUS=350
#_FIXED_DIVSLIT=0.600000
#_FIXED_SAMPLESLIT=0.000000
#_FIXED_DETSLIT=11.66
#_MONOCHROMATOR=0
#; None
#_THIN_FILM='N'
#_BETA_FILTER='Y'
#_FIXED_ANTISLIT=8.340000
#_ANALYZER_CODE=0
#; None
#_DATEMEASURED='27-Nov-2023 10:01:38'
#_WL_UNIT='A'
#_WL1=1.540600
#_WL2=1.544390
#_WL3=1.392220
#_WLRATIO=0.500000
#_ANODE='Cu'
#; (Data for Range number 1)
#_DRIVE='X'
#_STEPTIME=1.000000
#_STEPSIZE=1.000000
#_STEPMODE='S'
#_START=-20
#_THETA=0.000000
#_2THETA=0.000000
#_KHI=0.000000
#_PHI=92.46
#_X=-20
#_Y=1.000000
#_Z=-0.040000
#_DIVERGENCE=0.000000
#_ANTISCATTER=0.000000
#_DETECTOR=5
#_DETECTORSLIT='unkn'
#_AUX1=0.000000
#_AUX2=0.000000
#_AUX3=0.000000
#_TIMESTARTED=4.000000
#_TEMP_RATE=-1.000000
#_TEMP_DELAY=-1.000000
#_KV=40
#_MA=35
#_RANGE_WL=1.540600
#_3DPLANE=0
#_GONIOMETER=0.000000
#_PSDCHANNEL0=0
#_2THETACOUNTS
 -20.0000   2677850
 -19.0000   2692930
 -18.0000   2705580
 -17.0000   2702690
 -16.0000   2693320
 -15.0000   2704170
 -14.0000   2692680
 -13.0000   2689660
 -12.0000   2691590
 -11.0000   2687800
 -10.0000   2668410
  -9.0000   1284830
  -8.0000   1269750
  -7.0000   1278610
  -6.0000   1295170
  -5.0000   1314560
  -4.0000   1315590
  -3.0000   1328810
  -2.0000   1310390
  -1.0000   1337290
   0.0000   1333760
   1.0000   1348140
   2.0000   1358020
   3.0000   1384280
   4.0000   1366050
   5.0000   1352690
   6.0000   1388710
   7.0000   1395640
   8.0000   1390960
   9.0000   1402830
  10.0000   1426140
  11.0000   2209960
  12.0000   2685680
  13.0000   2707830
  14.0000   2712840
  15.0000   2685490
  16.0000   2708730
  17.0000   2692030
  18.0000   2676950
  19.0000   2699030
  20.0000   2697490

File: Z_1.UXD
#; C:\DIFFDAT1\Praktikum\Knierim_Karas\Z_1.raw(Diffrac Plus V1.01 file) converted by XCH V1.0
#_FILEVERSION=2
#_SITE='Deutschland'
#_USER='Administrator'
#_GONIOMETER_CODE=4885
#; D8 Theta/Theta; Special
#_SAMPLE_CHANGER_CODE=0
#_ATTACHMENTS_CODE=0
#_GONIOMETER_RADIUS=350
#_FIXED_DIVSLIT=0.600000
#_FIXED_SAMPLESLIT=0.000000
#_FIXED_DETSLIT=11.66
#_MONOCHROMATOR=0
#; None
#_THIN_FILM='N'
#_BETA_FILTER='Y'
#_FIXED_ANTISLIT=8.340000
#_ANALYZER_CODE=0
#; None
#_DATEMEASURED='27-Nov-2023 09:56:04'
#_WL_UNIT='A'
#_WL1=1.540600
#_WL2=1.544390
#_WL3=1.392220
#_WLRATIO=0.500000
#_ANODE='Cu'
#; (Data for Range number 1)
#_DRIVE='Z'
#_STEPTIME=1.000000
#_STEPSIZE=0.040000
#_STEPMODE='S'
#_START=-1.000000
#_THETA=0.000000
#_2THETA=0.000000
#_KHI=0.000000
#_PHI=92.46
#_X=0.544000
#_Y=1.000000
#_Z=-1.000000
#_DIVERGENCE=0.000000
#_ANTISCATTER=0.000000
#_DETECTOR=5
#_DETECTORSLIT='unkn'
#_AUX1=0.000000
#_AUX2=0.000000
#_AUX3=0.000000
#_TIMESTARTED=3.000000
#_TEMP_RATE=-1.000000
#_TEMP_DELAY=-1.000000
#_KV=40
#_MA=35
#_RANGE_WL=1.540600
#_3DPLANE=0
#_GONIOMETER=0.000000
#_PSDCHANNEL0=0
#_2THETACOUNTS
  -1.0000   2698970
  -0.9600   2686900
  -0.9200   2704430
  -0.8800   2701920
  -0.8400   2708210
  -0.8000   2718230
  -0.7600   2706930
  -0.7200   2704550
  -0.6800   2701150
  -0.6400   2703270
  -0.6000   2723880
  -0.5600   2703400
  -0.5200   2684200
  -0.4800   2704300
  -0.4400   2727920
  -0.4000   2687600
  -0.3600   2715980
  -0.3200   2700380
  -0.2800   2713800
  -0.2400   2710720
  -0.2000   2670910
  -0.1600   2495650
  -0.1200   2235700
  -0.0800   1856020
  -0.0400   1363420
   0.0000   1004220
   0.0400    560979
   0.0800    212036
   0.1200     47423
   0.1600      2037
   0.2000        26
   0.2400       100
   0.2800       199
   0.3200       467
   0.3600      1292
   0.4000      3528
   0.4400     10580
   0.4800     40888
   0.5200     95771
   0.5600    172169
   0.6000    212534
   0.6400    219446
   0.6800    194135
   0.7200    155203
   0.7600     86923
   0.8000     19603
   0.8400      2361
   0.8800       177
   0.9200         1
   0.9600         0
   1.0000         0